File: datasets/Processed-Population-Data.csv
Footprint Area,Footprint Aspect Ratio,Span Length along x dir.,Span Length along y dir.,No of spans along x dir.,No of spans along y dir.,No of floors,Interstory heigh,Maximum spacing between secondary beamsa,Selfweight of composite floor deckb,Weight of floor finisches,Variable floor load,Weigth of envelope,Total mass (optimised) structural steel frame,Total mass (rationalised) structural steel frame,Total (steel) mass of composite floor deck,Total (concrete) mass of composite floor deck,Total No of (primary and secondary) beams,Total No of columnsd,Total No of elements (Beams + Columns),Total No of Column-to-column (Column-to-foundation) connections,Total No of Beam-to-column & Beam-to-Beam connections,Total No of connections,Total mass (optimised) Columns,Total mass (rationalised) Columns,Total mass Concrete floors (beams + slabs),Total mass (optimised) Concrete  frame,Total mass (rationalised) Concrete  frame,Total mass (reinforcement) Steel,Total No of beamse,Total No of columns,Total No of elements (Beams + Columns) 2,Formwork surface area (beams),Total formwork surface area (columns),Total formwork surface area (floor slabs)g,Total mass (rationalised) Columns 2,Total mass timber floors (Glulam beams + CLT slabs),Total mass (rationalised) Timber  frame,Total mass steel connections,Total mass (rationalised) Columns plus Beams,Total No of (primary and secondary) beams 2,Total No of columnsd 2,Total No of (CLT) slabsh,Total No of connections 2
4826.674,0.888,5.266,7.275,14,9,2,3.581,2.6,2.15,0,2.15,3.61,363.79,371.93,111.9,2116.4,1054,150,1204,150,2108,2258,85.81,103.55,3382.45,3468.25,3486,296.76,316,300,616,856.35,210.24,7589.59,14.2817,651.987,666.268,67.74,226.076,1054,150,965.3348,2258
4826.978,0.847,5.033,5.813,15,11,5,3.798,2.6,2.55,0.15,2.7,7.54,794.07,875.83,279.77,6275.76,2605,576,3181,576,5210,5786,491.31,756.89,10929.16,11420.46,11686.05,1009.82,1010,960,1970,2346.53,1004.04,18070.56,81.1763,1572.92,1654.1,173.58,553.545,2605,576,2413.489,5786
2690.914,0.882,6.903,9.746,8,5,4,3.682,2.6,2.44,0,2.44,5.08,661.78,697.36,124.77,2678.12,692,108,800,108,1384,1492,153.97,233.63,4442.09,4596.06,4675.72,403.68,232,216,448,1139.84,245.16,8912,26.67,792.894,819.564,44.76,328.741,692,108,1076.37,1492
4898.686,0.742,5.077,5.482,16,11,6,3.909,2.6,2.29,0,2.29,2.74,902.9,1022.9,340.71,6863.53,3330,612,3942,612,6660,7272,675.72,1066.41,12619.89,13295.61,13686.31,1190.69,1284,1224,2508,2978.36,1329.94,21698.17,106.525,1847.95,1954.47,218.16,614.189,3330,612,2939.21,7272
446.039,0.253,5.994,10.63,7,1,9,3.613,2.6,2.55,1.66,4.21,6.72,410.56,481.52,46.53,1043.85,324,80,404,80,648,728,140.82,240.37,1898.18,2039,2138.56,191.25,144,144,288,680.13,154.58,3029.5,69.7872,367.847,437.634,21.84,254.579,324,80,401.4351,728
1870.972,0.782,6.99,9.56,7,4,7,3.875,2.6,2.14,0,2.14,3.56,767.18,832.85,151.82,2857.99,861,160,1021,160,1722,1882,301.21,501.31,5380.71,5681.92,5882.01,517.1,301,280,581,1545.73,387.31,10741.82,54.35199,944.819,999.171,56.46,401.956,861,160,1309.68,1882
3341.203,0.49,7.507,8.092,11,5,10,3.654,2.6,2.55,0.96,3.51,8.44,2214.06,2524.39,387.31,8688.08,2360,360,2720,360,4720,5080,897.36,1556.2,13025.43,13922.78,14581.63,1295.8,760,720,1480,3819.31,1175.52,27000.85,302.5512,2677.83,2980.38,152.4,1456.79,2360,360,3341.203,5080
4870.185,0.597,6.451,7.704,14,7,1,3.852,2.6,2.55,1.69,4.24,8.4,285.82,289.65,56.46,1266.39,413,120,533,120,826,946,34.47,34.47,1853.97,1888.44,1888.44,160.91,126,120,246,531.76,72.13,3905,8.505216,393.157,401.662,28.38,179.582,413,120,487.0185,946
1520.722,0.949,5.719,6.331,7,6,10,3.626,2.6,2.55,1.45,4,2.52,843.71,1005.68,176.28,3954.31,1810,280,2090,280,3620,3900,400.25,678.77,5348.7,5748.95,6027.47,535.58,610,560,1170,1920.22,684.26,11493.25,164.768,1157.05,1321.82,117,628.373,1810,280,1520.722,3900
4378.521,0.339,7.1,9.636,16,4,7,3.864,2.6,2.53,0,2.53,6.47,1948.96,2139.83,355.29,7907.28,1932,340,2272,340,3864,4204,682.36,1137.76,12565.62,13247.98,13703.38,1201.41,616,595,1211,2958.16,871.17,25297.63,129.553,2278.93,2408.48,126.12,1010.86,1932,340,3064.96,4204
3105.657,0.834,5.085,8.483,12,6,1,3.697,2.6,2.55,1.16,3.71,8.27,170.83,173.65,36,807.56,234,91,325,91,468,559,23.41,23.41,1212.11,1235.51,1235.51,104.81,96,91,187,299.89,51.53,2480.01,5.01411,233.7,238.715,16.77,97.0966,234,91,310.5657,559
2530.647,0.882,6.697,7.872,8,6,2,3.873,2.6,2.55,0.3,2.85,9.77,269.03,292.61,58.67,1316.08,412,63,475,63,824,887,47.71,59.41,1870.55,1918.25,1929.96,165.34,136,126,262,581.78,93.53,4056.18,9.89953,374.989,384.889,26.61,154.094,412,63,506.1294,887
3577.326,0.888,5.768,11.275,11,5,1,3.805,2.6,2.55,1.56,4.11,5.72,321.84,326.64,41.47,930.21,236,72,308,72,472,544,27.77,27.77,1698.36,1726.13,1726.13,146.23,76,72,148,329.18,48.56,2993.69,5.55755,315.29,320.848,16.32,157.722,236,72,357.7326,544
693.431,0.616,8.387,10.335,4,2,3,3.549,2.6,2.1,0,2.1,7.83,147.18,171.02,24.11,445.48,138,30,168,30,276,306,27.21,38.85,926.1,953.32,964.95,83.65,48,45,93,331.79,41.87,1685.35,4.59152,172.282,176.873,9.18,82.0117,138,30,208.0293,306
2316.252,0.824,5.303,5.459,10,8,9,3.969,2.6,2.55,0.07,2.62,6.83,828.61,1045.93,241.65,5420.63,3042,495,3537,495,6084,6579,667.08,1119.17,9010.53,9677.61,10129.7,896.09,954,891,1845,2466.65,1105.38,15253.78,127.536,1397.82,1525.36,197.37,574.771,3042,495,2084.63,6579
4512.403,0.939,7.704,9.297,9,7,5,3.786,2.6,2.39,0,2.39,5.85,1273.63,1337.98,261.54,5498.66,1340,240,1580,240,2680,2920,369,585,9079.36,9448.37,9664.36,839.57,430,400,830,2384.92,539.57,18812.39,62.69616,1664.02,1726.72,87.6,697.889,1340,240,2256.2,2920
4904.493,0.364,5.807,7.038,20,6,6,3.757,2.6,2.34,0,2.34,5.24,1195.34,1299.12,341.12,7021.7,3036,441,3477,441,6072,6513,519.63,828.27,10294.8,10814.43,11123.07,969.97,912,882,1794,2896.92,971.45,22952.86,103.042,2007.13,2110.17,195.39,768.302,3036,441,2942.7,6513
1651.412,0.558,5.442,7.587,10,4,2,3.924,2.6,2.55,1.25,3.8,11.04,199.53,219.55,38.29,858.83,348,55,403,55,696,751,35.33,42.25,1229.15,1264.49,1271.41,108.72,116,110,226,371.35,70.77,2558.33,9.61003,260.811,270.421,22.53,119.812,348,55,330.2824,751
681.909,0.592,5.655,10.049,6,2,3,3.784,2.6,2.55,1.25,3.8,6.57,169.9,177.97,23.71,531.95,168,42,210,42,336,378,30.03,42.3,907.16,937.19,949.45,81.99,66,63,129,293.22,49.21,1613.74,9.22243,174.879,184.101,11.34,90.8158,168,42,204.5727,378
3388.894,0.956,6.615,7.116,9,8,2,3.754,2.6,2.55,0.28,2.83,7.9,314.04,343.35,78.57,1762.42,610,90,700,90,1220,1310,61.05,75.1,2415.41,2476.47,2490.51,213.22,194,180,374,768.16,131.39,5364.59,12.4332,489.219,501.653,39.3,192.586,610,90,677.779,1310
3402.997,0.839,5.308,8.905,12,6,8,3.568,2.6,2.55,0.81,3.36,9.18,1875.42,2158.42,315.58,7079.01,2448,364,2812,364,4896,5260,628.93,1056.61,10904.98,11533.9,11961.59,1048.91,768,728,1496,2586.24,1007.49,21989.98,172.537,2121.49,2294.03,157.8,1052.62,2448,364,2722.4,5260
3805.62,0.649,6.961,8.283,11,6,10,3.965,2.6,2.55,0.16,2.71,5.8,2317.83,2637.25,441.15,9895.7,2810,420,3230,420,5620,6040,1082.71,1875.07,14425.78,15508.49,16300.86,1451.72,890,840,1730,4038.02,1363.15,30907.1,257.542,2783.77,3041.31,181.2,1305.95,2810,420,3805.62,6040
1385.798,0.586,5.402,9.501,9,3,8,3.672,2.6,2.53,0,2.53,11.53,745.62,981.05,128.51,2860.17,960,160,1120,160,1920,2080,276.23,463.63,4451.7,4727.93,4915.33,432.45,336,320,656,1218.64,396.19,8846.54,58.8625,831.956,890.819,62.4,385.28,960,160,1108.64,2080
2207.629,0.379,6.938,9.642,11,3,4,3.77,2.6,2,0,2,10.24,499.25,609.51,102.36,1800.93,584,96,680,96,1168,1264,132.27,200.35,3642.41,3774.68,3842.76,332.51,200,192,392,969.77,199.47,7192.89,20.8104,646.892,667.702,37.92,265.031,584,96,883.0516,1264
3728.434,0.308,5.235,8.478,21,4,7,3.932,2.6,2.27,0,2.27,7.41,1457.75,1693.17,302.54,6041.31,2527,440,2967,440,5054,5494,576.95,945.62,9734.78,10311.74,10680.41,935.24,791,770,1561,2289.43,899.2,20684.58,109.189,1845.81,1955,164.82,764.882,2527,440,2609.9,5494
3702.812,0.241,6.884,9.96,18,3,10,3.765,2.6,2.55,1.15,3.7,6.67,3066.35,3502.05,429.23,9628.37,2370,380,2750,380,4740,5120,1150.73,2003.65,16277.4,17428.12,18281.05,1625.81,780,760,1540,3909.12,1262.06,30368.48,383.817,3089.8,3473.61,153.6,1785.13,2370,380,3702.81,5120
2403.898,0.951,5.587,9.561,9,5,3,3.653,2.6,2.55,0.91,3.46,6.25,517.19,535.04,83.6,1875.25,582,120,702,120,1164,1284,89.13,126.06,3031.2,3120.33,3157.26,270.94,192,180,372,753.82,165.84,5876.36,22.0499,579.353,601.403,38.52,272.549,582,120,721.1694,1284
4261.857,0.446,5.432,7.265,18,6,4,3.585,2.6,2.55,0.42,2.97,8.28,802.39,977.67,197.61,4432.82,1824,266,2090,266,3648,3914,222.49,327.12,6005.5,6227.98,6332.62,545.46,552,532,1084,1590.35,483.94,13315.85,50.5337,1233.34,1283.88,117.42,506.513,1824,266,1704.74,3914
541.324,0.544,6.311,8.578,5,2,5,3.588,2.6,2.55,0.05,2.6,5.11,158.5,172.7,31.38,703.8,235,54,289,54,470,524,48.54,75.27,1062.31,1110.85,1137.58,99.5,95,90,185,433.45,81.11,2078.89,11.6458,202.527,214.173,15.72,90.7514,235,54,270.662,524
2715.936,0.435,6.078,11.458,13,3,7,3.878,2.6,2.55,0.06,2.61,6.1,1517.08,1659.28,220.38,4943.55,1204,224,1428,224,2408,2632,483.34,807.39,8759.82,9243.16,9567.21,838.54,406,392,798,1844.73,565.45,15788.56,95.7316,1477.67,1573.41,78.96,706.479,1204,224,1901.16,2632
3062.116,0.466,5.788,6.299,14,6,1,3.625,2.6,2.55,0.25,2.8,4.19,110.41,112.53,35.5,796.24,356,105,461,105,712,817,24.11,24.11,1044.5,1068.61,1068.61,91,110,105,215,340.2,56.54,2324.82,3.93947,213.453,217.393,24.51,77.7601,356,105,306.2116,817
3960.298,0.287,6.18,6.745,19,5,3,3.839,2.6,2.55,0.69,3.24,3.58,549.09,588.04,137.72,3089.37,1212,240,1452,240,2424,2664,138.17,189.13,4145.26,4283.43,4334.4,373.48,372,360,732,1322.17,286.49,9160.28,36.6185,868.7859,905.404,79.92,363.636,1212,240,1188.09,2664
4119.059,0.802,6.516,7.184,11,8,7,3.746,2.6,2.55,1.55,4.1,8.73,1772.04,1964.77,334.24,7497.51,2597,432,3029,432,5194,5626,579.07,952.65,10579.11,11158.18,11531.76,1010.64,805,756,1561,3065.83,971.65,22869.53,218.985,2286.04,2505.03,168.78,1190.22,2597,432,2883.34,5626
1701.593,0.367,5.236,8.333,13,3,1,3.698,2.6,2.55,1.44,3.99,7.4,108.37,110.46,19.72,442.46,172,56,228,56,344,400,14.03,14.03,662.51,676.54,676.54,57.58,58,56,114,191.83,28.52,1324.33,3.08644,137.84,140.927,12,63.334,172,56,170.1593,400
4410.215,0.672,5.399,6.051,15,9,6,3.983,2.6,2.31,0,2.31,11.78,1015.03,1251.71,306.74,6233.1,3384,480,3864,480,6768,7248,495.38,773.54,8815.25,9310.63,9588.79,836.38,1008,960,1968,2559.26,977.83,20033.77,101.312,1768.74,1870.05,217.44,663.417,3384,480,2646.129,7248
4640.239,0.784,5.917,6.033,13,10,5,3.64,2.6,2.07,0,2.07,3.5,804.33,860.94,268.95,4897.36,2715,462,3177,462,5430,5892,344.5,523.91,7736.41,8080.9,8260.31,714.8,815,770,1585,2261.93,754.57,17703.61,62.4015,1523.53,1585.93,176.76,527.957,2715,462,2320.12,5892
1033.101,0.897,5.656,6.088,6,5,1,3.996,2.6,2.11,0,2.11,4.66,35.86,36.4,11.98,222.28,131,42,173,42,262,304,10.63,10.63,348.05,358.68,358.68,30.61,46,42,88,135.55,21.45,765.56,1.51317,69.1027,70.6159,9.12,23.5064,131,42,103.3101,304
4287.502,0.809,8.089,9.816,9,6,6,3.799,2.6,2.3,0,2.3,10.21,1755.88,2142.21,298.2,6033.43,1710,210,1920,210,3420,3630,493.61,808.23,10675.77,11169.39,11484,1002.2,450,420,870,2675.57,640.76,21607.24,84.8466,2028.97,2113.81,108.9,940.752,1710,210,2572.5,3630
1418.042,0.232,5.584,9.07,14,2,3,3.735,2.6,2.55,1.45,4,7.46,314.53,334.89,49.31,1106.19,384,90,474,90,768,858,57.55,80.17,1758.29,1815.84,1838.46,158.51,138,135,273,518.6,97.47,3305.65,18.1844,356.216,374.401,25.74,180.412,384,90,425.4126,858
4120.565,0.488,6.562,8.971,14,5,6,3.6,2.6,2.55,0.06,2.61,5.51,1405.3,1512.77,286.59,6428.79,1794,270,2064,270,3588,3858,441.93,717.56,9673.41,10115.34,10390.97,904.55,564,540,1104,2392.91,701.3,20205.06,85.9365,1803.2,1889.14,115.74,761.752,1794,270,2472.339,3858
4770.745,0.48,5.248,9.568,19,5,7,3.606,2.6,2.55,0.83,3.38,10.53,2496.98,2952.53,387.12,8683.71,2828,480,3308,480,5656,6136,721.49,1194.86,13905.4,14626.89,15100.26,1317.39,868,840,1708,2838.03,1136.5,27198.03,190.751,2669.02,2859.77,184.08,1336.95,2828,480,3339.52,6136
3834.773,0.755,5.481,6.728,13,8,8,3.873,2.6,2.55,0.95,3.5,9.38,1633.76,1936.04,355.62,7977.21,3496,504,4000,504,6992,7496,704.84,1167.81,10815.04,11519.87,11982.85,1054.78,1064,1008,2072,3045.07,1230.76,23739.48,219.989,2276.17,2496.15,224.88,1097.23,3496,504,3067.82,7496
4518.104,0.499,7.321,7.912,13,6,1,3.514,2.6,2.55,0.09,2.64,2.92,218.75,225.92,52.37,1174.84,331,98,429,98,662,760,27.29,27.29,1690.19,1717.48,1717.48,146.27,103,98,201,498.54,59.95,3652.51,4.57808,328.129,332.707,22.8,126.681,331,98,451.8104,760
2466.738,0.481,7.159,8.614,10,4,8,3.86,2.6,2.55,0.07,2.62,6.66,1157.53,1289.32,228.76,5131.38,1392,220,1612,220,2784,3004,475.74,803.62,7698.05,8173.79,8501.68,751.41,464,440,904,2303.02,623.08,15960.67,106.955,1458.37,1565.33,90.12,665.463,1392,220,1973.39,3004
3390.726,0.433,6.807,7.664,13,5,3,3.929,2.6,2.55,1.49,4.04,4.94,613.83,654.95,117.92,2645.06,834,168,1002,168,1668,1836,122.82,172.19,3837.54,3960.36,4009.72,345.5,264,252,516,1124.26,224.04,8096.51,38.3033,820.3,858.604,55.08,394.752,834,168,1017.22,1836
1643.612,0.493,6.414,7.118,9,4,6,3.522,2.6,2.55,1.35,3.9,3.75,554.82,616.8,114.32,2564.32,942,150,1092,150,1884,2034,174.69,278.87,3641.44,3816.13,3920.31,342.7,318,300,618,1261.06,316.21,7617.4,62.9903,773.133,836.123,61.02,386.431,942,150,986.167,2034
3416.017,0.817,5.877,8.807,11,6,10,3.69,2.6,2.35,0,2.35,2.91,1938.27,2149.8,395.98,8185.95,2810,420,3230,420,5620,6040,928.58,1603.9,13088.85,14017.44,14692.75,1300.94,890,840,1730,3220.38,1306.62,27732.57,184.786,2411.75,2596.53,181.2,1038.83,2810,420,3416.017,6040
2141.868,0.806,5.726,8.312,9,5,9,3.892,2.6,2.55,1.04,3.59,11.77,1336.69,1615.71,223.46,5012.52,1746,300,2046,300,3492,3792,524.9,892.6,7450.23,7975.13,8342.83,738.28,576,540,1116,2026.69,740.92,15371.86,178.756,1522.73,1701.48,113.76,822.462,1746,300,1927.68,3792
1569.595,0.67,8.066,8.108,6,4,10,3.887,2.6,2.55,0.45,3,9.82,1122.08,1352.85,181.95,4081.4,1300,175,1475,175,2600,2775,451.4,782.22,6021.86,6473.26,6804.07,608.93,380,350,730,2149.66,537.02,12595.08,138.241,1308.57,1446.81,83.25,731.074,1300,175,1569.595,2775
4777.23,0.712,6.302,8.33,13,7,8,3.729,2.6,2.55,0.94,3.49,9.26,2395.25,2761.25,443.02,9937.73,3072,448,3520,448,6144,6592,874.8,1474.08,14786.86,15661.66,16260.94,1428.44,944,896,1840,3619.06,1314.24,31015.36,258.36,2966.72,3225.08,197.76,1482.35,3072,448,3821.78,6592
3710.926,0.591,5.661,11.705,14,4,9,3.908,2.6,2.55,1.48,4.03,8.53,3498.12,3855.18,387.15,8684.52,2178,375,2553,375,4356,4731,1086.93,1875.63,16309.88,17396.82,18185.52,1604.51,702,675,1377,2901.57,1182.02,27935.69,353.837,2975.52,3329.36,141.93,1806.39,2178,375,3339.83,4731
3652.435,0.673,7.366,8.264,10,6,9,3.582,2.6,2.55,1.16,3.71,8.05,2191.72,2491.14,381.05,8547.64,2304,385,2689,385,4608,4993,796.75,1366.61,12899.88,13696.63,14266.49,1259.87,738,693,1431,3592.95,1107.78,26758.69,274.163,2666.48,2940.64,149.79,1441.68,2304,385,3287.19,4993
2658.336,0.625,5.435,5.823,12,7,6,3.549,2.6,2.55,0.81,3.36,9.9,693.84,809.21,184.89,4147.46,2130,312,2442,312,4260,4572,371.97,595,7868.02,8240,8463.03,734.46,660,624,1284,1819.63,711.92,11865.65,79.8665,1145.23,1225.1,137.16,497.779,2130,312,1595,4572
4539.894,0.575,5.553,8.516,16,6,4,3.956,2.6,2.55,0.33,2.88,3.04,1024.95,1081.29,210.51,4722.01,1624,238,1862,238,3248,3486,266.53,397.95,6832.85,7099.38,7230.81,623.52,496,476,972,1569.29,479.14,14629.47,58.5555,1332.88,1391.43,104.58,563.357,1624,238,1815.96,3486
4388.185,0.368,6.071,10.04,18,4,10,3.872,2.6,2.55,1.02,3.57,2.66,3534.08,3969.29,508.68,11410.54,3100,475,3575,475,6200,6675,1388.32,2413.7,19100.18,20488.5,21513.88,1909.64,980,950,1930,4053.62,1605.62,36128.83,423.016,3574.13,3997.15,200.25,1996.14,3100,475,4388.185,6675
3915.886,0.63,5.255,5.519,15,9,10,3.504,2.6,2.55,0.42,2.97,11.89,1685.44,2021.71,453.93,10182.42,5640,800,6440,800,11280,12080,1208.13,2060.19,17361.02,18569.15,19421.21,1713.53,1680,1600,3280,4222,2198.02,28892.15,247.837,2703.1,2950.94,362.4,1165.29,5640,800,3915.886,12080
1943.37,0.697,5.868,7.359,9,5,3,3.954,2.6,2.23,0,2.23,5.75,244.82,265.87,67.58,1325.75,582,120,702,120,1164,1284,72.69,99.5,2093.06,2165.76,2192.56,188.79,192,180,372,662.5,141.57,4548.34,14.438,402.082,416.52,38.52,150.667,582,120,583.011,1284
3451.451,0.39,7.236,9.173,13,4,10,3.514,2.6,2.55,0.35,2.9,6.53,2283.89,2549.61,400.09,8974.76,2250,350,2600,350,4500,4850,912.98,1586.63,13789.63,14702.61,15376.26,1362.15,730,700,1430,3585.77,1165.45,28270.05,229.13,2653.9,2883.03,145.5,1309.17,2250,350,3451.451,4850
4046.121,0.309,8.173,8.841,14,4,6,3.519,2.6,2.55,0.44,2.99,3.22,1697.33,1827.63,281.42,6312.64,1788,225,2013,225,3576,3801,423.36,690.6,9690.87,10114.23,10381.47,907.69,468,450,918,2861.69,616.58,19889.24,105.186,2012.53,2117.72,114.03,1010.7,1788,225,2427.67,3801
2611.489,0.684,6.179,7.044,10,6,7,3.508,2.6,2.55,0.9,3.45,4.81,1010.76,1120.45,211.91,4753.43,1792,308,2100,308,3584,3892,351.19,574.9,6673.37,7024.56,7248.27,634.51,574,539,1113,2074.65,639.98,14276.41,106.547,1368.95,1475.49,116.76,641.907,1792,308,1828.04,3892
4809.658,0.886,5.668,6.527,13,10,2,3.702,2.6,2.55,1.11,3.66,11.18,454.22,498.22,111.51,2501.3,1086,154,1240,154,2172,2326,89.7,107.15,3372.03,3461.73,3479.19,296.85,326,308,634,958.46,213.98,7450,23.1304,720.05,743.181,69.78,304.54,1086,154,961.932,2326
4895.664,0.901,7.369,9.49,10,7,10,3.717,2.6,2.55,0.3,2.85,7.31,3229.37,3644.78,567.51,12730.13,2970,440,3410,440,5940,6380,1355.52,2361.65,19807.44,21162.97,22169.09,1964.48,940,880,1820,4787.24,1632.6,40869.25,318.382,3748.69,4067.07,191.4,1834.65,2970,440,4895.664,6380
2979.05,0.736,5.303,11.703,12,4,8,3.728,2.6,2.12,0,2.12,7.43,1870.74,2205.52,276.27,5152.1,1664,260,1924,260,3328,3588,652.74,1108.08,11109.01,11761.75,12217.09,1071.73,544,520,1064,2144.19,813.44,19826.43,103.085,1803.08,1906.17,107.64,819.409,1664,260,2383.24,3588
1594.794,0.45,7.44,8.931,8,3,2,3.923,2.6,2.55,1.12,3.67,5.37,218.45,229.89,36.97,829.38,214,36,250,36,428,464,32.99,41.93,1333.72,1366.71,1375.65,118.5,76,72,148,428.57,54.59,2568.75,8.78325,265.176,273.959,13.92,128.514,214,36,318.9588,464
2285.568,0.321,6.029,6.769,14,4,10,3.585,2.6,2.32,0,2.32,10.97,1068.04,1410.46,264.94,5407.08,2420,375,2795,375,4840,5215,583.02,994.29,8034.86,8617.88,9029.15,802.44,780,750,1530,2715.36,946.31,17416.96,126.651,1585.39,1712.04,156.45,669.82,2420,375,2285.568,5215
3517.676,0.901,6.248,11.26,10,5,7,3.914,2.6,2.55,0.73,3.28,2.72,2115.19,2287.34,285.44,6402.87,1505,264,1769,264,3010,3274,609.13,1018.88,11211.29,11820.42,12230.17,1071.18,490,462,952,2375.77,733.46,20699.04,153.8,2017.27,2171.07,98.22,1048.23,1505,264,2462.37,3274
2591.099,0.528,5.836,6.166,12,6,1,3.66,2.6,2.55,1.22,3.77,8.39,110.79,119.12,30.04,673.76,306,91,397,91,612,703,21.1,21.1,905.68,926.78,926.78,78.98,96,91,187,303.55,48.74,1956.59,4.4277,194.949,199.377,21.09,81.2228,306,91,259.11,703
4310.828,0.763,7.518,11.469,10,5,6,3.579,2.6,2.38,0,2.38,5.63,1799.43,1904.66,299.83,6277.26,1290,198,1488,198,2580,2778,515.84,847.76,12016.99,12532.83,12864.75,1119.84,420,396,816,2618.3,647.93,22023.06,84.4928,1978.7,2063.2,83.34,883.754,1290,198,2586.5,2778
3734.728,0.458,5.312,8.272,17,5,1,3.521,2.6,2.55,1.41,3.96,10.76,229.25,253.11,43.29,971.14,362,108,470,108,724,832,26.52,26.52,1443.23,1469.75,1469.75,124.71,112,108,220,356.43,60.59,2969.56,5.66751,299.717,305.384,24.96,135.081,362,108,373.4728,832
2770.518,0.801,7.353,9.42,8,5,1,3.6,2.6,2.55,1.52,4.07,8.31,203.74,207.71,32.12,720.41,173,54,227,54,346,400,18.55,18.55,1181.9,1200.46,1200.46,102.31,58,54,112,328.78,34.94,2290.4,3.9436,237.092,241.036,12,114.7,173,54,277.0518,400
2653.493,0.39,5.153,8.046,16,4,2,3.675,2.6,2.41,0,2.41,7.19,227.65,236.07,61.52,1304.21,424,85,509,85,848,933,51.51,61.9,1941.4,1992.91,2003.31,170.71,176,170,346,499.26,111.18,4154.23,9.311274,358.085,367.396,27.99,125.397,424,85,530.699,933
2930.394,0.439,7.427,8.967,11,4,4,3.861,2.6,2.55,1.14,3.69,4.27,814.72,873.54,135.88,3047.94,764,120,884,120,1528,1648,176.24,267.27,4882.49,5058.72,5149.75,447.08,252,240,492,1402.72,266.1,9571.14,52.2162,963.3,1015.52,49.44,481.012,764,120,1172.16,1648
4052.441,0.911,5.558,6.752,12,9,8,3.902,2.6,2.55,1.4,3.95,9.29,1858.72,2215.03,375.81,8430,3624,520,4144,520,7248,7768,747.5,1240.36,11447.91,12195.41,12688.27,1117.41,1104,1040,2144,3257.14,1290.03,25187.89,269.554,2471.57,2741.13,233.04,1262.8,3624,520,3241.95,7768
4076.721,0.636,5.339,10.181,15,5,10,3.602,2.6,2.46,0,2.46,11.42,2881.31,3826.37,472.57,10226.5,3200,480,3680,480,6400,6880,1163.57,2017.22,16981.69,18145.27,18998.91,1676.68,1000,960,1960,3314.5,1570.71,33518.67,217.759,3041.66,3259.41,206.4,1400.43,3200,480,4076.721,6880
4351.766,0.485,5.923,9.184,16,5,8,3.837,2.6,2.55,0.6,3.15,11.85,2406.08,2948.77,403.57,9052.67,2728,408,3136,408,5456,5864,836.75,1411.2,13667.77,14504.52,15078.98,1325.16,848,816,1664,3066.67,1175.44,28391.73,219.063,2693.15,2912.22,175.92,1324.69,2728,408,3481.41,5864
2811.529,0.559,6.445,6.609,11,6,9,3.718,2.6,2.26,0,2.26,9.36,1119.75,1372.48,293.32,5831.42,2529,420,2949,420,5058,5478,600.61,1014.81,8864.7,9465.3,9879.51,875.71,801,756,1557,3021.8,982.31,19552.59,124.255,1736.92,1861.17,164.34,707.323,2529,420,2530.38,5478
4929.697,0.343,5.705,8.229,21,5,5,3.947,2.6,2.55,1.32,3.87,9.77,1579.96,1804.42,285.73,6409.31,2230,396,2626,396,4460,4856,429.43,669.82,9511.44,9940.87,10181.26,884.76,680,660,1340,2369.23,722.22,19696.55,138.525,1964.81,2103.34,145.68,979.367,2230,396,2464.85,4856
2952.098,0.438,6.842,7.191,12,5,4,3.93,2.6,2.55,1.14,3.69,10.97,688.08,730.54,136.88,3070.52,1028,156,1184,156,2056,2212,170.88,254.65,4382.27,4553.15,4636.92,402.14,328,312,640,1384.46,302.44,9277,50.763,927.772,978.535,66.36,440.072,1028,156,1180.84,2212
3029.966,0.751,5.293,9.541,12,5,1,3.963,2.6,2.55,0.32,2.87,10.26,198.1,232.69,35.12,787.88,257,78,335,78,514,592,23.33,23.33,1212.76,1236.09,1236.09,104.71,82,78,160,269.42,45.44,2462.82,4.10936,232.523,236.632,17.76,98.4656,257,78,302.9966,592
4016.34,0.718,7.48,7.671,10,7,10,3.868,2.6,2.26,0,2.26,9.01,2054.49,2431.63,465.57,9255.93,2970,440,3410,440,5940,6380,1085.04,1877.86,14857.01,15942.06,16734.87,1491.23,940,880,1820,4637.14,1427,32407.4,214.353,2865.78,3080.13,191.4,1248.68,2970,440,4016.34,6380
4440.092,0.545,6.017,8.199,15,6,2,3.82,2.6,2.55,0.51,3.06,4.82,474.5,490.98,102.94,2309.1,762,112,874,112,1524,1636,82.59,102.78,3297.74,3380.33,3400.53,290.22,234,224,458,826.3,169.53,7144.35,17.3583,661.589,678.947,49.08,274.011,762,112,888.018,1636
3070.175,0.981,5.594,10.978,10,5,10,3.627,2.6,2.55,0.49,3.04,9.73,2707.78,3149.73,355.89,7983.33,2150,330,2480,330,4300,4630,929.31,1616.71,13612.72,14542.03,15229.43,1346.9,700,660,1360,2922.91,1147.06,25533.98,222.984,2484.86,2707.84,138.9,1307.84,2150,330,3070.175,4630
3964.376,0.783,5.473,9.287,13,6,4,3.619,2.6,2.55,1.16,3.71,7.14,1136.31,1190.22,183.82,4123.4,1324,196,1520,196,2648,2844,226.55,341.08,6512.75,6739.3,6853.83,590.26,412,392,804,1466.92,418.13,12929.2,62.7128,1280.38,1343.09,85.32,619.989,1324,196,1585.75,2844
3578.324,0.275,6.004,6.274,19,5,8,3.584,2.6,2.55,0.9,3.45,6.39,1354.69,1559.15,331.84,7443.73,3232,480,3712,480,6464,6944,610.06,1009.43,10042.22,10652.28,11051.65,973.34,992,960,1952,3304.54,1119.57,21645.18,193.88,2113.09,2306.97,208.32,1001.59,3232,480,2862.66,6944
828.574,0.65,5.951,7.735,6,3,10,3.954,2.6,2.24,0,2.24,8.31,443.91,571.18,96.05,1892.61,810,140,950,140,1620,1760,252.22,430.89,3055.73,3307.95,3486.62,312.11,300,280,580,1155.39,342.4,6370.2,55.4601,591.194,646.654,52.8,268.824,810,140,828.574,1760
4755.634,0.785,5.189,5.554,15,11,7,3.655,2.6,2.55,0.19,2.74,5.53,1145.5,1303.64,385.89,8656.21,3647,768,4415,768,7294,8062,813.09,1322.55,14737.43,15550.52,16059.98,1400.86,1414,1344,2758,3466.25,1601.21,24698.54,141.2292,2174.03,2315.26,241.86,797.262,3647,768,3328.94,8062
4623.246,0.927,6.419,7.276,11,9,7,3.859,2.6,2.55,0.17,2.72,7.56,1624.25,1902.2,375.15,8415.23,2912,480,3392,480,5824,6304,652.02,1072.03,11555.35,12207.38,12627.38,1107.97,896,840,1736,3390.56,1079.24,25769.9,143.296,2300.4,2443.7,189.12,967.956,2912,480,3236.27,6304
918.478,0.448,7.544,10.145,6,2,5,3.624,2.6,2.55,0.53,3.08,7.69,349.83,380.81,53.23,1194.15,280,63,343,63,560,623,84.66,133.92,2019.08,2103.74,2153.01,188.5,110,105,215,671.93,115.46,3700.39,23.9629,381.454,405.417,18.69,196.004,280,63,459.239,623
2698.371,0.387,8.345,10.778,10,3,7,3.752,2.6,2.07,0,2.07,11.91,1401.58,1787.87,218.96,3987.04,1141,176,1317,176,2282,2458,441.86,741.24,8465.58,8907.44,9206.82,808.31,322,308,630,2087.13,486.95,15805.08,76.7606,1534.39,1611.15,73.74,749.834,1141,176,1888.86,2458
4910.589,0.639,6.264,9.333,14,6,1,3.7,2.6,2.55,0.71,3.26,10.82,324.55,355.29,56.92,1276.89,356,105,461,105,712,817,32.5,32.5,1961.77,1994.27,1994.27,169.38,110,105,215,469.81,66.23,4044.73,5.790204,384.284,390.075,24.51,166.152,356,105,491.0589,817
3789.836,0.771,5.842,6.757,12,8,1,3.948,2.6,2.55,1.6,4.15,7.23,204.36,207.6,43.93,985.47,404,117,521,117,808,925,29.59,29.59,1353.38,1382.97,1382.97,117.59,124,117,241,394.85,64.76,2948.08,7.67058,295.102,302.773,27.75,129.956,404,117,378.984,925
4026.01,0.947,5.015,5.614,13,11,3,3.801,2.6,2.55,0.21,2.76,5,383.54,411.17,140.01,3140.63,1359,336,1695,336,2718,3054,179.82,242.83,5329.62,5509.44,5572.45,476.82,534,504,1038,1239.36,409.07,8952.91,31.8122,789.36,821.172,91.62,270.414,1359,336,1207.803,3054
4726.84,0.732,7.303,9.806,11,6,10,3.987,2.6,2.55,0.55,3.1,5.14,3430.02,3832.74,547.94,12291.14,2810,420,3230,420,5620,6040,1437.2,2505.95,19685.46,21122.66,22191.41,1976.31,890,840,1730,4968.66,1572.43,39526.99,385.1442,3722.3,4107.44,181.2,1952,2810,420,4726.84,6040
1548.249,0.645,6.125,7.899,8,4,2,3.869,2.6,2.55,1.1,3.65,7.17,188.5,196.68,35.89,805.18,280,45,325,45,560,605,31.65,38.79,1178.57,1210.22,1217.36,104.24,96,90,186,369.6,61.36,2435.88,8.47334,244.252,252.725,18.15,111.525,280,45,309.6498,605
3200.409,0.962,5.244,6.935,11,8,1,3.54,2.6,2.55,0.21,2.76,5.47,128.39,130.81,37.1,832.2,371,108,479,108,742,850,24.22,24.22,1108.87,1133.09,1133.09,96.14,115,108,223,314.35,59.14,2481.53,3.957012,223.969,227.926,25.5,81.9871,371,108,320.0409,850
2616.238,0.623,5.399,8.076,12,5,6,3.625,2.6,2.55,1.71,4.26,2.08,1051.69,1153.37,181.96,4081.78,1542,234,1776,234,3084,3318,291.54,466.78,6014.43,6305.98,6481.21,564.8,492,468,960,1641.38,522.31,12420.17,106.835,1262.6,1369.43,99.54,653.63,1542,234,1569.74,3318
2805.153,0.664,5.001,7.192,13,6,5,3.642,2.6,2.55,1.64,4.19,4.13,745.03,819.21,162.59,3647.1,1265,294,1559,294,2530,2824,226.02,345.21,5056.04,5282.07,5401.25,467.46,515,490,1005,1359.65,468.62,10844.12,78.8891,1046.72,1125.61,84.72,486.038,1265,294,1402.58,2824
2643.056,0.446,6.415,8.584,12,4,4,3.913,2.6,2.55,1.34,3.89,6.66,697.31,739.65,122.55,2749.08,832,130,962,130,1664,1794,161.15,242.61,4248.63,4409.77,4491.24,389.39,272,260,532,1199.93,262.6,8496.98,50.9646,859.744,910.709,53.82,428.615,832,130,1057.22,1794
2479.613,0.228,5.213,11.892,20,2,5,3.945,2.6,2.11,0,2.11,5.77,968.35,1106.69,143.72,2667.58,910,189,1099,189,1820,2009,266.95,421.84,5851.7,6118.65,6273.54,544.53,320,315,635,1163.38,330.84,10084.97,44.8158,950.211,995.027,60.27,429.676,910,189,1239.81,2009
4988.311,0.847,5.905,6.498,13,10,3,3.994,2.6,2.33,0,2.33,4.48,544.88,571.72,173.47,3555.59,1629,308,1937,308,3258,3566,178.24,242.87,5120.71,5298.95,5363.57,461.28,489,462,951,1528.37,379.85,11612.94,33.9522,1005.78,1039.73,106.98,357.327,1629,308,1496.49,3566
4181.074,0.413,6.287,8.313,16,5,9,3.589,2.6,2.55,0.31,2.86,9.35,2156.53,2558.82,436.2,9784.79,3069,510,3579,510,6138,6648,895.55,1527.86,14145.13,15040.69,15672.99,1382.28,954,918,1872,3657.35,1341.38,30289.86,218.847,2783.73,3002.57,199.44,1286.66,3069,510,3762.97,6648
3264.512,0.972,5.796,7.041,10,8,7,3.601,2.6,2.55,1.27,3.82,10.47,1342.11,1469.53,264.9,5942.07,2366,396,2762,396,4732,5128,447.35,731.28,8271.76,8719.11,9003.04,787.42,742,693,1435,2406.84,827.03,17898.93,148.771,1759.88,1908.65,153.84,866.622,2366,396,2285.16,5128
3677.488,0.703,6.574,8.476,11,6,3,3.505,2.6,2.55,1.7,4.25,5.01,751.86,787.79,127.89,2868.76,843,168,1011,168,1686,1854,121.47,171.91,4391.83,4513.3,4563.74,392.39,267,252,519,1211.19,240.34,8964.63,36.567,912.27,948.837,55.62,445.757,843,168,1103.25,1854
1339.917,0.41,5.719,7.81,10,3,10,3.928,2.6,2.55,0.26,2.81,9.62,836.74,1038.77,155.32,3484.17,1330,220,1550,220,2660,2880,397.93,680.25,4928.66,5326.59,5608.91,500.64,460,440,900,1618.45,544.6,10338.38,108.839,990.571,1099.41,86.4,488.408,1330,220,1339.917,2880
1924.326,0.334,5.059,5.072,15,5,6,3.886,2.6,2.29,0,2.29,11.78,374.87,459.34,133.84,2696.16,1470,288,1758,288,2940,3228,269.09,415.38,4714.28,4983.37,5129.66,447.74,600,576,1176,1457.46,531.17,8083.73,49.8343,741.588,791.422,96.84,264.926,1470,288,1154.6,3228
4956.234,0.514,5.454,6.311,18,8,6,3.648,2.6,2.55,1.43,3.98,10.02,1517.7,1711.2,344.72,7732.58,3612,513,4125,513,7224,7737,520.57,820.13,10346.24,10866.81,11166.38,972.14,1068,1026,2094,2955.59,1084.62,22709.43,176.303,2250.26,2426.56,232.11,1070.53,3612,513,2973.74,7737
2443.868,0.325,5.784,7.043,15,4,6,3.752,2.6,2.53,0,2.53,6.99,638.19,759.42,169.98,3782.95,1554,240,1794,240,3108,3348,268,425,5156.19,5424.19,5581.18,487.61,498,480,978,1632.01,484.3,11249.05,56.0027,1024.5,1080.5,100.44,411.858,1554,240,1466.32,3348
3389.805,0.282,5.479,10.312,20,3,6,3.65,2.6,2.55,0.87,3.42,3.72,1631.44,1755.68,235.77,5288.68,1578,252,1830,252,3156,3408,425.01,690.49,9013.26,9438.27,9703.75,844.22,516,504,1020,1868.9,612.78,16539.53,115.847,1657.53,1773.38,102.24,845.926,1578,252,2033.88,3408
3825.578,0.692,6.758,10.293,11,5,5,3.594,2.6,2.55,0.29,2.84,10.08,1355.98,1526.14,221.73,4973.8,1180,216,1396,216,2360,2576,317.83,504.02,8200.98,8518.81,8705,754.73,380,360,740,1929.93,476.86,15971.38,64.8136,1484.24,1549.05,77.28,676.819,1180,216,1912.789,2576
2935.8,0.806,5.029,6.95,12,7,4,3.7,2.6,2.55,0.49,3.04,4.43,507.59,550.98,136.13,3053.57,1084,208,1292,208,2168,2376,162.2,233.81,4054.05,4216.24,4287.85,369.34,440,416,856,1125.88,356.55,9053.12,37.4549,807.07,844.525,71.28,309.035,1084,208,1174.32,2376
4427.024,0.622,5.271,8.748,16,6,3,3.746,2.6,2.55,0.92,3.47,10.39,843.15,993.32,153.95,3453.46,1218,238,1456,238,2436,2674,160.94,225.08,5247,5407.94,5472.08,469.14,372,357,729,1194.42,320.63,10706.95,38.448,1038.18,1076.62,80.22,471.008,1218,238,1328.11,2674
1932.859,0.42,5.65,7.127,12,4,8,3.868,2.6,2.55,1.17,3.72,9.87,951.6,1077.42,179.25,4020.79,1664,260,1924,260,3328,3588,372.28,617.45,5618.22,5990.51,6235.68,550.34,544,520,1064,1758.38,595.71,11861.42,133.603,1192.27,1325.88,107.64,620.77,1664,260,1546.29,3588
1181.517,0.396,6.067,10.819,9,2,5,3.604,2.6,2.55,0.42,2.97,5.85,475.44,506.69,68.48,1536.14,415,90,505,90,830,920,111.66,176.2,2642.45,2754.11,2818.65,245.31,155,150,305,725.99,156.76,4763.97,27.0808,476.34,503.421,27.6,234.035,415,90,590.7585,920
2061.287,0.855,6.136,6.998,8,6,10,3.805,2.6,2.55,1.47,4.02,10.54,1315.31,1591.53,238.94,5359.94,2060,315,2375,315,4120,4435,566.63,970.06,7472.07,8038.7,8442.13,751.22,680,630,1310,2432.89,853.62,16043.03,233.329,1620.93,1854.26,133.05,914.312,2060,315,2061.287,4435
3546.22,0.476,5.755,10.27,15,4,9,3.578,2.6,2.55,0.5,3.05,7.82,2494.06,2804.07,369.97,8299.07,2331,400,2731,400,4662,5062,844.27,1448.97,13550.35,14394.61,14999.31,1321.4,747,720,1467,2950.41,1122.76,26256.7,209.04,2520.16,2729.2,151.86,1273.83,2331,400,3191.598,5062
1269.36,0.711,6.037,7.509,7,4,9,3.513,2.6,2.55,0.43,2.98,6.92,653.13,736.84,132.43,2970.63,1107,200,1307,200,2214,2414,273.8,462.64,4158.68,4432.48,4621.32,408.79,387,360,747,1443.38,443.06,8873.81,79.642,848.098,927.74,72.42,406.794,1107,200,1142.424,2414
2579.836,0.709,5.027,10.691,12,4,8,3.701,2.6,2.55,0.47,3.02,4.21,1413.91,1563.83,239.24,5366.65,1280,260,1540,260,2560,2820,534.81,903.28,8954.71,9489.52,9857.98,865.15,544,520,1064,1906.34,736.98,16891.49,127.834,1552.7,1680.54,84.6,739.412,1280,260,2063.87,2820
4861.94,0.758,5.722,8.67,14,7,3,3.753,2.6,2.55,0.17,2.72,2.35,784.89,818.87,169.08,3792.73,1239,240,1479,240,2478,2718,168.11,235.9,5529.71,5697.81,5765.6,493.94,378,360,738,1264.55,332.81,11843.91,32.8772,1060.51,1093.39,81.54,428.273,1239,240,1458.58,2718
4142.666,0.53,5.892,7.812,15,6,5,3.695,2.6,2.22,0,2.22,8.67,920.07,1184.85,240.11,4689.04,1905,336,2241,336,3810,4146,322.61,501.6,7536.66,7859.27,8038.26,696.6,585,560,1145,1968.09,602.62,16495.1,54.8255,1440.53,1495.35,124.38,550.825,1905,336,2071.333,4146
2617.735,0.961,5.8,10.03,9,5,4,3.905,2.6,2.08,0,2.08,7.53,633.54,743.14,121.38,2220.9,776,120,896,120,1552,1672,163.17,246.72,4351.37,4514.54,4598.1,396.7,256,240,496,1021.38,259.13,8616.34,24.8321,758.365,783.197,50.16,305.723,776,120,1047.094,1672
3139.24,0.741,5.425,8.036,12,6,1,3.527,2.6,2.55,0.47,3.02,3.71,159.26,162.58,36.39,816.29,306,91,397,91,612,703,21.78,21.78,1150.53,1172.31,1172.31,99.34,96,91,187,293.35,50.78,2495.5,3.77959,231.764,235.544,21.09,92.3947,306,91,313.924,703
4041.069,0.465,5.482,8.672,17,5,8,3.92,2.6,2.4,0,2.4,2.44,1879.6,2085.68,374.75,7911.86,2896,432,3328,432,5792,6224,782.52,1312.14,12238.61,13021.13,13550.75,1191.62,896,864,1760,2807.61,1155.44,25982.09,149.72,2286.78,2436.5,186.72,962.32,2896,432,3232.86,6224
4742.433,0.869,6.157,8.024,12,8,6,3.834,2.6,2.55,0.24,2.79,9.72,1600.79,1815.29,329.85,7399.01,2424,351,2775,351,4848,5199,520.07,838.21,10498.68,11018.75,11336.89,987.88,744,702,1446,2685.75,871.45,22962.77,111.427,2072.36,2183.78,155.97,886.255,2424,351,2845.46,5199
4444.562,0.99,5.584,6.633,12,10,5,3.826,2.6,2.55,0.72,3.27,6.97,1044.49,1153.77,257.61,5778.57,2510,429,2939,429,5020,5449,351.53,538.03,7626.98,7978.52,8165.02,708.43,760,715,1475,2216.98,716.14,17243.94,91.7353,1608,1699.73,163.47,686.371,2510,429,2222.281,5449
1705.351,0.631,5.198,8.201,10,4,8,3.862,2.6,2.55,0.75,3.3,7.36,784.3,894.33,158.15,3547.52,1072,220,1292,220,2144,2364,333.63,555.08,5056.42,5390.06,5611.51,494.48,464,440,904,1449.88,517.58,10697.58,101.304,999.876,1101.18,70.92,479.068,1072,220,1364.28,2364
4907.48,0.97,5.08,9.858,14,7,4,3.806,2.6,2.55,1.34,3.89,10.58,1319.49,1385.95,227.55,5104.34,1260,240,1500,240,2520,2760,302.05,455.64,8340.71,8642.76,8796.35,757,504,480,984,1641.13,530.51,16111.97,80.7591,1549.08,1629.84,82.8,734.716,1260,240,1962.99,2760
2062.969,0.57,5.467,5.717,11,6,7,3.754,2.6,2.55,0.54,3.09,8.58,626.17,747.55,167.4,3755.02,1967,336,2303,336,3934,4270,378.86,617.54,6619.94,6998.81,7237.48,633.19,623,588,1211,1753.07,672.5,10629.66,79.6059,1016.36,1095.96,128.1,437.465,1967,336,1444.08,4270
1775.657,0.97,7.13,10.377,6,4,5,3.818,2.6,2.55,1.56,4.11,6.36,739.4,791.72,102.92,2308.61,530,105,635,105,1060,1165,169.09,268.4,4030.32,4199.41,4298.72,374.38,190,175,365,1113.79,224.39,7372.95,56.8288,776.2,833.029,34.95,428.179,530,105,887.8285,1165
1491.422,0.217,6.91,8.994,12,2,3,3.603,2.6,2.55,1.54,4.09,8.17,330.11,354.33,51.87,1163.44,330,78,408,78,660,738,56.26,79.56,1885.15,1941.4,1964.71,170.08,120,117,237,603.76,92.33,3517.53,18.6351,384.548,403.183,22.14,199.157,330,78,447.427,738
1660.305,0.43,5.649,8.906,11,3,3,3.777,2.6,2.23,0,2.23,3.32,269.49,284.9,57.74,1132.65,438,96,534,96,876,972,62.77,87.33,1929.57,1992.35,2016.9,173.32,150,144,294,536.76,113.88,3946.69,11.0333,353.614,364.647,29.16,137.518,438,96,498.0915,972
3053.586,0.751,5.314,6.841,12,7,5,3.602,2.6,2.55,0.66,3.21,9.56,747.18,849.02,176.99,3970.1,1775,312,2087,312,3550,3862,232.96,354.86,5266.61,5499.58,5621.47,486.88,550,520,1070,1534.02,497.88,11783.41,62.8105,1113.12,1175.93,115.86,479.711,1775,312,1526.793,3862
1532.523,0.557,5.829,9.738,9,3,8,3.676,2.6,2.55,1.4,3.95,7.04,1033.34,1144.75,142.12,3188,960,160,1120,160,1920,2080,317.84,536.35,5262.26,5580.1,5798.6,511.01,336,320,656,1421.35,426.04,9880.3,114.498,1037.34,1151.84,62.4,592.774,960,160,1226.02,2080
687.232,0.732,6.126,7.478,5,3,7,3.857,2.6,2.55,1.06,3.61,4.62,312.1,358.23,55.76,1250.9,476,96,572,96,952,1048,112.44,183.11,1818.91,1931.35,2002.03,176.77,182,168,350,725.86,174.52,3670.32,40.8056,375.989,416.794,31.44,197.43,476,96,481.062,1048
4205.204,0.783,5.235,5.738,14,10,8,3.57,2.6,2.55,0.04,2.59,11.75,1359.23,1654.02,389.97,8747.79,4672,660,5332,660,9344,10004,903.6,1503.8,15299.21,16202.81,16803.02,1470.46,1392,1320,2712,3494.17,1697.17,25126.43,146.537,2249.42,2395.95,300.12,861.894,4672,660,3364.16,10004
2261.544,0.212,6.884,10.951,15,2,4,3.518,2.6,2.55,1.16,3.71,5.02,759,801.5,104.86,2352.26,548,96,644,96,1096,1192,144.13,219.38,4287.37,4431.5,4506.75,389.91,196,192,388,1022.07,198.05,7386.54,42.5362,779.089,821.625,35.76,409.12,548,96,904.618,1192
664.328,0.532,5.047,6.268,7,3,10,3.516,2.6,2.49,0,2.49,7.17,278.7,342.99,77.01,1686.8,730,160,890,160,1460,1620,177.93,296.66,2260.38,2438.31,2557.04,227.38,340,320,660,939.75,322.7,4778.82,43.5264,444.487,488.013,48.6,185.08,730,160,664.328,1620
4929.269,0.846,5.453,9.225,14,7,7,3.803,2.6,2.55,0.14,2.69,5.79,2153.97,2345.3,399.98,8972.26,2891,480,3371,480,5782,6262,737.02,1218.94,13455.05,14192.08,14674,1281.42,882,840,1722,2837.79,1148.69,28195.62,150.475,2544.32,2694.79,187.86,1121.37,2891,480,3450.49,6262
2214.5,0.233,6.091,11.361,16,2,6,3.937,2.6,2.55,1.13,3.68,3.98,1226.98,1333.5,154.02,3455,876,153,1029,153,1752,1905,328.12,535.58,6412.56,6740.68,6948.15,607.4,312,306,618,1390.3,369.01,10837.5,102.466,1147.95,1250.42,57.15,644.531,876,153,1328.7,1905
3941.26,0.675,8.488,8.598,9,6,5,3.627,2.6,2.55,0.08,2.63,4.35,1249.44,1321.72,228.44,5124.2,1425,210,1635,210,2850,3060,301.1,476.99,7714.35,8015.45,8191.34,713.47,375,350,725,2379.6,459.75,16258.76,59.7962,1574.92,1634.71,91.8,736.107,1425,210,1970.63,3060
3321.72,0.323,5.335,8.193,19,4,5,3.893,2.6,2.55,0.93,3.48,7.68,1021.42,1169.64,192.53,4318.71,1635,300,1935,300,3270,3570,292.52,453.41,6339.83,6632.35,6793.24,589.22,515,500,1015,1558.47,503.26,13091.32,86.047,1285.74,1371.79,107.1,614.436,1635,300,1660.86,3570
4750.497,0.934,5.094,6.661,14,10,10,3.754,2.6,2.37,0,2.37,8.84,1861.42,2221.84,550.68,11480.7,4440,825,5265,825,8880,9705,1224.03,2076.3,16163.99,17388.02,18240.29,1615.58,1740,1650,3390,4354.22,2173.83,36662.76,239.625,3088.35,3327.98,291.15,1161.75,4440,825,4750.497,9705
4211.325,0.414,5.309,8.35,19,5,2,3.887,2.6,2.55,1.11,3.66,11.49,528.9,589.93,97.64,2190.13,808,120,928,120,1616,1736,84.84,104.48,3226.51,3311.35,3330.99,283.9,248,240,488,736.18,172.73,6711.2,20.7696,662.819,683.589,52.08,299.516,808,120,842.265,1736
2217.316,0.674,6.374,7.731,9,5,3,3.963,2.6,2.55,1.04,3.59,3.57,374.06,395.29,77.11,1729.7,582,120,702,120,1164,1284,83.52,116.35,2516.56,2600.08,2632.9,226.81,192,180,372,762.45,152.94,5271.47,23.9211,514.553,538.474,38.52,235.145,582,120,665.1948,1284
1537.214,0.29,5.596,10.565,13,2,1,3.58,2.6,2.31,0,2.31,9.61,103.65,124.66,17.82,362.1,119,42,161,42,238,280,11.69,11.69,664.34,676.03,676.03,57.37,43,42,85,166.8,21.28,1230.22,1.77064,117.017,118.788,8.4,48.6911,119,42,153.7214,280
2708.432,0.977,6.581,8.574,8,6,6,3.649,2.6,2.45,0,2.45,11.97,897.68,1083.92,188.38,4059.91,1236,189,1425,189,2472,2661,292.48,473.54,6215.31,6507.79,6688.85,583.15,408,378,786,1754.69,471.63,13205.98,57.1039,1180.1,1237.2,79.83,496.173,1236,189,1625.06,2661
2721.627,0.614,5.549,5.839,12,7,10,3.663,2.6,2.55,0.1,2.65,9.99,1148.76,1442.63,315.49,7077.01,3550,520,4070,520,7100,7620,920.52,1577.72,12775.65,13696.17,14353.37,1269.46,1100,1040,2140,3100.73,1473.54,20295.18,157.714,1853.87,2011.59,228.6,770.526,3550,520,2721.627,7620
3392.836,0.322,5.705,8.26,18,4,8,3.66,2.6,2.55,0.79,3.34,4.31,1759.75,1972.7,314.64,7057.88,2480,380,2860,380,4960,5340,630.99,1057.15,10473.37,11104.36,11530.52,1012.82,784,760,1544,2614.58,976.81,21528.46,184.765,2069.16,2253.92,160.2,1016.22,2480,380,2714.27,5340
2720.329,0.682,5.741,7.18,11,6,2,3.894,2.6,2.55,0.67,3.22,7.99,269.75,298.7,63.07,1414.73,562,84,646,84,1124,1208,53.31,64.24,1917.3,1970.6,1981.54,169.4,178,168,346,574.39,113.73,4246.37,13.2709,402.131,415.402,36.24,167.308,562,84,544.066,1208
3173.026,0.884,6.658,10.59,9,5,7,3.588,2.6,2.55,1.15,3.7,8.51,1881.36,2027.01,257.47,5775.54,1358,240,1598,240,2716,2956,504.14,843.14,10114.93,10619.07,10958.07,958.07,448,420,868,2318.84,661.7,18582.51,146.681,1873.62,2020.3,88.68,1007.47,1358,240,2221.12,2956
2245.119,0.463,5.355,5.375,13,6,2,3.554,2.6,2.23,0,2.23,4.88,137.89,142.97,52.05,1021.07,662,98,760,98,1324,1422,52.67,61.21,1938.66,1991.33,1999.87,170.31,206,196,402,531.29,126.39,3244.73,8.20297,294.018,302.221,42.66,97.466,662,98,449.024,1422
4879.235,0.753,5.03,6.737,16,9,8,3.944,2.6,2.55,0.12,2.67,10.02,1607.17,2005.99,452.48,10149.93,3656,680,4336,680,7312,7992,892.42,1469.17,13255.31,14147.73,14724.49,1295.14,1424,1360,2784,3463.48,1616.21,30121.65,193.442,2604.9,2798.34,239.76,1018.4,3656,680,3903.388,7992
2931.525,0.467,5.659,9.251,14,4,4,3.874,2.6,2.55,1.35,3.9,5.83,862.99,915.21,135.93,3049.12,968,150,1118,150,1936,2086,182.89,275.23,4844.18,5027.08,5119.41,442.29,312,300,612,1164.94,302.92,9475.51,54.7443,964.541,1019.29,62.58,484.575,968,150,1172.61,2086
4964.383,0.625,6.854,9.286,13,6,2,3.594,2.6,2.31,0,2.31,8.92,549.47,596.69,115.09,2338.77,662,98,760,98,1324,1422,86.35,110.06,3952.76,4039.11,4062.82,346.59,206,196,402,925.86,168.46,8213.32,12.9614,718.918,731.88,42.66,279.128,662,98,992.877,1422
2455.767,0.429,6.302,6.494,12,5,9,3.795,2.6,2.23,0,2.23,5.56,905.5,1042.29,256.21,5025.92,2313,390,2703,390,4626,5016,534.68,900.71,7567.07,8101.75,8467.78,749.46,738,702,1440,2464.51,868.06,16878.51,110.293,1502.42,1612.71,150.48,604.867,2313,390,2210.19,5016
3440.083,0.771,6.682,8.581,10,6,7,3.707,2.6,2.55,1.07,3.62,8.26,1615.17,1762.39,279.14,6261.64,1792,308,2100,308,3584,3892,508.33,843.94,9655.46,10163.79,10499.4,921.08,574,539,1113,2683.24,754.69,19617.07,154.503,1915.3,2069.8,116.76,971.725,1792,308,2408.06,3892
2654.927,0.546,5.364,6.346,13,6,4,3.755,2.6,2.55,0.39,2.94,11.13,440.03,551.1,123.1,2761.43,1324,196,1520,196,2648,2844,148.77,212.5,3596.05,3744.82,3808.55,328.96,412,392,804,1140,323.86,8027.54,35.8187,752.563,788.382,85.32,304.123,1324,196,1061.97,2844
1675.325,0.415,6.352,6.594,10,4,5,3.922,2.6,2.31,0,2.31,10.43,361.11,424.76,97.1,1973.16,870,165,1035,165,1740,1905,142.05,217.66,2955.01,3097.06,3172.68,277.24,290,275,565,1105.73,254.15,6353.42,28.5773,584.738,613.315,57.15,231.341,870,165,837.6625,1905
2146.815,0.431,7.055,7.608,10,4,3,3.672,2.6,2.55,1.07,3.62,7.33,382.87,405.41,74.66,1674.7,522,110,632,110,1044,1154,74.32,104.08,2451.19,2525.52,2555.28,220.37,174,165,339,792.1,140.71,5080.92,20.3176,511.613,531.931,34.62,238.247,522,110,644.0445,1154
4337.052,0.603,7.713,8.52,11,6,7,3.519,2.6,2.55,0.26,2.81,6.37,1764.37,1920.88,351.93,7894.3,1967,336,2303,336,3934,4270,579.23,964.23,11753.37,12332.6,12717.6,1114.16,623,588,1211,3354.29,868.02,24913.83,130.304,2305.16,2435.47,128.1,1051.08,1967,336,3035.94,4270
4177.51,0.359,5.394,9.682,20,4,8,3.616,2.6,2.55,1.41,3.96,4.08,2757.34,3032.72,387.41,8690.18,2752,420,3172,420,5504,5924,817.86,1379.86,14113.96,14931.83,15493.82,1358.69,864,840,1704,2943.21,1182.81,27152.99,282.938,2775.26,3058.19,177.72,1534.24,2752,420,3342.01,5924
4429.708,0.492,5.273,5.834,18,8,4,3.783,2.6,2.55,0.97,3.52,9.48,750.76,864.54,205.4,4607.4,2408,342,2750,342,4816,5158,330,489.43,8707.09,9037.1,9196.52,790.98,712,684,1396,1833.77,671.77,13237.81,68.5603,1282.05,1350.61,154.74,542.636,2408,342,1771.88,5158
3650.733,0.546,6.292,11.159,13,4,5,3.938,2.6,2.55,0.36,2.91,6.52,1439.46,1522.82,211.6,4746.47,1125,210,1335,210,2250,2460,350.57,556.5,8223.75,8574.32,8780.25,761.96,365,350,715,1707.87,460.97,15271.41,73.2925,1450.94,1524.23,73.8,691.863,1125,210,1825.37,2460
4210.361,0.594,7.017,7.143,12,7,1,3.613,2.6,2.55,1.36,3.91,3.25,226.87,233.83,48.81,1094.81,355,104,459,104,710,814,27.51,27.51,1550.13,1577.64,1577.64,134.39,110,104,214,478.92,61.51,3341.73,6.23974,331.69,337.93,24.42,145.938,355,104,421.0361,814
4562.805,0.903,6.462,8.023,11,8,10,3.811,2.6,2.55,1.71,4.26,3,3255.53,3727.18,528.92,11864.6,3710,540,4250,540,7420,7960,1264.23,2185.25,17558.43,18822.66,19743.67,1755.47,1150,1080,2230,4953.22,1744.67,36920.05,511.95,3689.65,4201.6,238.8,2120.96,3710,540,4562.805,7960
4138.341,0.872,5.739,10.015,12,6,4,3.63,2.6,2.55,0.14,2.69,3.2,1103.41,1157.67,191.89,4304.35,1224,182,1406,182,2448,2630,234.78,355.32,6841.75,7076.53,7197.07,618.91,384,364,748,1420.94,409.34,13687.66,41.0878,1238.04,1279.12,78.9,524.29,1224,182,1655.34,2630
4640.429,0.601,5.86,6.599,15,8,1,3.661,2.6,2.25,0,2.25,10.67,163.53,196.66,53.79,1064.69,503,144,647,144,1006,1150,33.4,33.4,1601.02,1634.42,1634.42,138.94,151,144,295,474.55,79.94,3595.93,5.45635,314.569,320.025,34.5,108.422,503,144,464.043,1150
978.565,0.989,5.243,7.777,6,4,9,3.934,2.6,2.55,1.07,3.62,8.34,614.32,707.7,102.09,2290.09,954,175,1129,175,1908,2083,249.63,420.26,3305.84,3555.47,3726.1,330.85,342,315,657,1127.95,370.91,6803.53,91.2059,692.544,783.75,62.49,382.147,954,175,880.709,2083
2387.17,0.975,8.248,9.647,6,5,3,3.673,2.6,2.1,0,2.1,4.18,434.98,450.68,83.02,1533.57,483,84,567,84,966,1050,84.03,120.15,2993.44,3077.47,3113.59,268.48,138,126,264,896.35,132.43,5966.85,13.3054,555.223,568.528,31.5,241.963,483,84,716.151,1050
1825.448,0.896,5.015,10.111,9,4,4,3.656,2.6,2.55,0.36,2.91,9.01,457.17,502.86,84.64,1898.67,484,100,584,100,968,1068,111.33,167.18,3056.64,3167.97,3223.82,277.98,212,200,412,761.73,196.19,5913.76,22.7374,542.963,565.7,32.04,232.738,484,100,730.1792,1068
4215.499,0.999,5.904,8.114,11,8,4,3.61,2.6,2.48,0,2.48,7.79,854.37,956.29,195.46,4264.24,1484,216,1700,216,2968,3184,220.47,329.2,6207.63,6428.1,6536.84,563.03,460,432,892,1587.04,439.51,13589.28,41.321,1189.09,1230.41,95.52,461.506,1484,216,1686.2,3184
4652.582,0.609,5.463,6.654,16,8,7,3.656,2.6,2.55,0.19,2.74,5.92,1430.7,1589.32,377.53,8468.63,3752,612,4364,612,7504,8116,624.08,1011.69,11160.62,11784.71,12172.31,1064.36,1120,1071,2191,3144.65,1224.89,25160.99,141.211,2253.97,2395.18,243.48,910.076,3752,612,3256.81,8116
3763.326,0.711,5.598,5.746,13,9,10,3.914,2.6,2.02,0,2.02,9.74,1393.51,1808.78,436.24,7751.83,4900,700,5600,700,9800,10500,1316.74,2256.91,17217.98,18534.71,19474.88,1727.54,1480,1400,2880,4186.49,2024.3,28183.87,183.753,2467.53,2651.28,315,935.207,4900,700,3763.326,10500
885.359,0.551,6.68,11.045,6,2,9,3.765,2.6,2.55,1.72,4.27,3.08,789.32,901.72,92.37,2071.97,504,105,609,105,1008,1113,263.1,452.93,3818.74,4081.83,4271.66,379.92,198,189,387,1106.02,279.54,6468.57,113.943,718.51,832.453,33.39,469.102,504,105,796.823,1113
3896.812,0.453,5.794,6.005,16,7,1,3.96,2.6,2.55,1.06,3.61,11.46,168.89,187.24,45.17,1013.28,471,136,607,136,942,1078,34.12,34.12,1346.73,1380.85,1380.85,117.67,142,136,278,428.67,74.74,2940.8,7.15962,288.674,295.833,32.34,118.139,471,136,389.6812,1078
3612.674,0.352,5.335,5.94,19,6,10,3.651,2.6,2.55,0.88,3.43,3.2,1672.63,1985.94,418.78,9393.99,4810,700,5510,700,9620,10320,1297.82,2228.69,18226.97,19524.78,20455.66,1806.93,1450,1400,2850,3884.23,2035.43,26892.79,304.721,2591.24,2895.97,309.6,1248.59,4810,700,3612.674,10320
305.377,0.204,5.531,7.888,7,1,8,3.608,2.6,2.55,0.32,2.87,2.09,153.78,184.75,28.32,635.25,288,64,352,64,576,640,69.23,112.99,928.71,997.95,1041.7,93.04,128,128,256,488.59,99.9,1672.09,23.1346,184.965,208.1,19.2,96.6984,288,64,244.3016,640
4779.647,0.7,7.514,11.565,11,5,6,3.522,2.6,2.55,0.55,3.1,5.8,2305.17,2438.5,332.43,7457.07,1416,216,1632,216,2832,3048,565.74,930.18,13448.04,14013.78,14378.22,1250.47,456,432,888,2825.39,717.11,24453.32,123.461,2358.8,2482.27,91.44,1174.55,1416,216,2867.79,3048
1762.052,0.76,5.35,6.099,9,6,1,3.836,2.6,2.55,0.5,3.05,3.92,67.99,70.25,20.43,458.18,231,70,301,70,462,532,17.01,17.01,593.94,610.95,610.95,52.1,75,70,145,208.84,37.04,1315.22,3.16209,123.685,126.847,15.96,46.4975,231,70,176.2052,532
3785.602,0.988,6.879,7.643,9,8,10,3.725,2.6,2.55,1.29,3.84,10.15,2512.29,2923.03,438.83,9843.65,3050,450,3500,450,6100,6550,1009.21,1743.34,14221.47,15230.68,15964.8,1417.36,970,900,1870,4130.95,1423.09,30449.71,370.27,3009.88,3380.15,196.5,1653.91,3050,450,3785.602,6550
4660.827,0.336,7.856,9.888,15,4,8,3.522,2.6,2.55,0.34,2.89,4.38,2868.45,3098.17,432.23,9695.59,2552,320,2872,320,5104,5424,842.28,1433.36,15566.7,16408.98,17000.06,1493.16,664,640,1304,3721.2,1061.21,31054.22,200.739,3080.5,3281.24,162.72,1580.97,2552,320,3728.66,5424
4177.32,0.438,6.975,8.555,14,5,5,3.77,2.6,2.55,0.33,2.88,8.76,1189.76,1324.41,242.12,5431.11,1495,270,1765,270,2990,3260,334.8,527.49,8007.13,8341.93,8534.62,741.31,470,450,920,2116.36,536.41,16994.66,74.9955,1576.53,1651.52,97.8,699.094,1495,270,2088.66,3260
4440.162,0.668,5.436,5.446,15,10,1,3.914,2.6,2.04,0,2.04,2.7,131.02,132.49,51.47,923.66,625,176,801,176,1250,1426,43.64,43.64,1908.71,1952.35,1952.35,165.43,185,176,361,461.64,99.43,3281.81,6.2108,283.544,289.755,42.78,87.2832,625,176,444.0162,1426
4773.752,0.684,5.221,9.524,16,6,5,3.673,2.6,2.3,0,2.3,2.28,1429.61,1505.97,276.69,5598.07,2030,357,2387,357,4060,4417,392.11,614.71,9450.86,9842.98,10065.57,869.21,620,595,1215,1869.35,691.09,19487.83,67.9583,1712.34,1780.3,132.51,691.885,2030,357,2386.876,4417
2506.807,0.694,6.009,6.953,10,6,4,3.527,2.6,2.55,1.68,4.23,10.83,574.77,651.87,116.24,2607.37,1024,154,1178,154,2048,2202,131.79,194.11,3623.95,3755.74,3818.06,329.58,328,308,636,1124.02,280.21,7794.03,44.9735,796.272,841.246,66.06,384.004,1024,154,1002.72,2202
2968.552,0.775,7.738,9.591,8,5,10,3.521,2.6,2.55,1.1,3.65,2.01,2237.19,2529.65,344.11,7719.08,1730,270,2000,270,3460,3730,834.82,1456.44,12850.14,13684.96,14306.58,1269.83,580,540,1120,3554.18,990.77,24676.5,274.28,2471.98,2746.26,111.9,1392.6,1730,270,2968.552,3730
4249.251,0.765,5.732,7.129,13,8,1,3.893,2.6,2.55,0.69,3.24,9.58,204.52,221.98,49.26,1104.93,437,126,563,126,874,1000,31.72,31.72,1492.19,1523.91,1523.91,129.45,133,126,259,415.87,70.37,3339.07,6.52095,313.356,319.877,30,126.111,437,126,424.925,1000
4426.985,0.721,6.528,7.064,12,8,1,3.546,2.6,2.55,1.06,3.61,6.51,220.53,223.61,51.32,1151.14,404,117,521,117,808,925,29.09,29.09,1615.37,1644.46,1644.46,139.82,124,117,241,473.67,68.25,3501.56,6.1834,338.019,344.202,27.75,142.332,404,117,442.698,925
4623.539,0.5,6.008,6.871,16,7,6,3.527,2.6,2.55,0.4,2.95,2.62,1279.04,1404.22,321.58,7213.51,2826,408,3234,408,5652,6060,455.83,727.14,9659.15,10114.99,10386.29,904.3,852,816,1668,2826.42,912.11,21655.32,111.34,1969.12,2080.46,181.8,815.462,2826,408,2774.12,6060
3575.499,0.751,5.308,7.402,13,7,7,3.977,2.6,2.55,0.26,2.81,11.38,1269.23,1674.72,290.13,6508.12,2688,448,3136,448,5376,5824,533.96,870.87,8859.83,9393.79,9730.7,852.85,826,784,1610,2345.69,914.7,19640.94,129.084,1787.3,1916.38,174.72,775.082,2688,448,2502.85,5824
2330.406,0.345,5.869,9.455,14,3,5,3.648,2.6,2.55,1.16,3.71,4.27,844.89,906.05,135.07,3029.86,925,180,1105,180,1850,2030,204.84,322.15,4900.85,5105.68,5223,453.5,310,300,610,1237.85,322.17,9370.5,61.66944,951.631,1013.3,60.9,481.968,925,180,1165.203,2030
4630.713,0.966,7.692,9.556,9,7,7,3.614,2.6,2.55,0.32,2.87,6.38,2131.61,2303.91,375.75,8428.82,1876,320,2196,320,3752,4072,659.47,1102.15,13244.77,13904.24,14346.92,1254.94,602,560,1162,3306.55,897.24,27133.49,148.955,2510.08,2659.03,122.16,1180.91,1876,320,3241.5,4072
4196.469,0.339,5.3,5.387,21,7,6,3.86,2.6,2.42,0,2.42,6.63,898.4,1079.81,291.87,6213.43,3696,528,4224,528,7392,7920,576.49,909.96,10841.42,11417.91,11751.37,1022.74,1092,1056,2148,2702.3,1118.17,18343.14,99.1893,1654.39,1753.58,237.6,605.429,3696,528,2517.88,7920